Comment: Only preliminary results are available for alpha+oxygen at the moment.
The 3038 keV resonance was shifted by 1 keV to the higher energy according to
the results by Colaux et al. published in NIMB 349 (2015) 173-183. 

Version: 03-09-2014
Source: SigmaCalc 2.0. File created 11-10-2021
Name: A.Gurbich
Address1: Institute of Physics and Power Engineering
Address2: Bondarenko sq. 1
Address3: 249020
Address4: Russia
Serial Number: 
Reaction: 16O(a,a0)16O
Distribution: Energy
Composition: 
Masses:    4.0,   16.000,    4.000,   16.000
Zeds: 2, 8, 2, 8
Qvalue:      0.00,      0.00,      0.00,      0.00,      0.00
Theta: 160.0
Sigfactors: 1.00, 0.00
Enfactors: 1.00, 0.00, 0.00, 0.00
Units: rr
Data:
1769.0 0.0 1.006 0.0 
1819.0 0.0 1.006 0.0 
1857.0 0.0 1.006 0.0 
1870.0 0.0 1.006 0.0 
1920.0 0.0 1.006 0.0 
1970.0 0.0 1.006 0.0 
2050.0 0.0 1.005 0.0 
2100.0 0.0 1.004 0.0 
2150.0 0.0 1.002 0.0 
2200.0 0.0 0.998 0.0 
2250.0 0.0 0.993 0.0 
2300.0 0.0 0.982 0.0 
2400.0 0.0 0.913 0.0 
2450.0 0.0 0.742 0.0 
2460.0 0.0 0.658 0.0 
2465.0 0.0 0.608 0.0 
2470.0 0.0 0.563 0.0 
2475.0 0.0 0.569 0.0 
2480.0 0.0 0.757 0.0 
2481.0 0.0 0.834 0.0 
2482.0 0.0 0.925 0.0 
2483.0 0.0 1.030 0.0 
2484.0 0.0 1.145 0.0 
2485.0 0.0 1.264 0.0 
2486.0 0.0 1.383 0.0 
2487.0 0.0 1.494 0.0 
2488.0 0.0 1.593 0.0 
2489.0 0.0 1.676 0.0 
2490.0 0.0 1.742 0.0 
2491.0 0.0 1.791 0.0 
2495.0 0.0 1.849 0.0 
2500.0 0.0 1.776 0.0 
2505.0 0.0 1.675 0.0 
2510.0 0.0 1.588 0.0 
2520.0 0.0 1.465 0.0 
2530.0 0.0 1.388 0.0 
2550.0 0.0 1.301 0.0 
2600.0 0.0 1.220 0.0 
2650.0 0.0 1.197 0.0 
2700.0 0.0 1.194 0.0 
2750.0 0.0 1.203 0.0 
2830.0 0.0 1.245 0.0 
2870.0 0.0 1.285 0.0 
2915.0 0.0 1.365 0.0 
2965.0 0.0 1.581 0.0 
2981.0 0.0 1.739 0.0 
2988.0 0.0 1.843 0.0 
2994.0 0.0 1.963 0.0 
3000.0 0.0 2.125 0.0 
3004.0 0.0 2.269 0.0 
3008.0 0.0 2.458 0.0 
3012.0 0.0 2.712 0.0 
3016.0 0.0 3.073 0.0 
3020.0 0.0 3.614 0.0 
3024.0 0.0 4.498 0.0 
3026.0 0.0 5.172 0.0 
3028.0 0.0 6.111 0.0 
3030.0 0.0 7.470 0.0 
3032.0 0.0 9.505 0.0 
3033.0 0.0 10.888 0.0 
3034.0 0.0 12.574 0.0 
3035.0 0.0 14.560 0.0 
3036.0 0.0 16.718 0.0 
3037.0 0.0 18.665 0.0 
3038.0 0.0 19.704 0.0 
3039.0 0.0 19.113 0.0 
3040.0 0.0 16.817 0.0 
3041.0 0.0 13.585 0.0 
3042.0 0.0 10.369 0.0 
3043.0 0.0 7.699 0.0 
3044.0 0.0 5.677 0.0 
3045.0 0.0 4.210 0.0 
3046.0 0.0 3.161 0.0 
3048.0 0.0 1.871 0.0 
3052.0 0.0 0.825 0.0 
3056.0 0.0 0.503 0.0 
3060.0 0.0 0.404 0.0 
3066.0 0.0 0.375 0.0 
3072.0 0.0 0.351 0.0 
3078.0 0.0 0.100 0.0 
3100.0 0.0 0.769 0.0 
3150.0 0.0 0.911 0.0 
3200.0 0.0 1.009 0.0 
3250.0 0.0 1.105 0.0 
3300.0 0.0 1.273 0.0 
3310.0 0.0 1.336 0.0 
3320.0 0.0 1.424 0.0 
3330.0 0.0 1.556 0.0 
3340.0 0.0 1.779 0.0 
3350.0 0.0 2.226 0.0 
3355.0 0.0 2.651 0.0 
3360.0 0.0 3.383 0.0 
3365.0 0.0 4.661 0.0 
3366.0 0.0 4.979 0.0 
3367.0 0.0 5.294 0.0 
3368.0 0.0 5.575 0.0 
3369.0 0.0 5.781 0.0 
3370.0 0.0 5.863 0.0 
3371.0 0.0 5.777 0.0 
3372.0 0.0 5.502 0.0 
3373.0 0.0 5.059 0.0 
3374.0 0.0 4.503 0.0 
3375.0 0.0 3.904 0.0 
3376.0 0.0 3.324 0.0 
3377.0 0.0 2.803 0.0 
3380.0 0.0 1.694 0.0 
3385.0 0.0 0.920 0.0 
3390.0 0.0 0.692 0.0 
3400.0 0.0 0.628 0.0 
3410.0 0.0 0.665 0.0 
3430.0 0.0 0.748 0.0 
3440.0 0.0 0.780 0.0 
3470.0 0.0 0.851 0.0 
3500.0 0.0 0.897 0.0 
3530.0 0.0 0.931 0.0 
3560.0 0.0 0.959 0.0 
3600.0 0.0 0.990 0.0 
3630.0 0.0 1.012 0.0 
3660.0 0.0 1.032 0.0 
3700.0 0.0 1.059 0.0 
3730.0 0.0 1.081 0.0 
3760.0 0.0 1.106 0.0 
3800.0 0.0 1.148 0.0 
3820.0 0.0 1.177 0.0 
3840.0 0.0 1.224 0.0 
3850.0 0.0 1.262 0.0 
3860.0 0.0 1.330 0.0 
3870.0 0.0 1.493 0.0 
3875.0 0.0 1.723 0.0 
3880.0 0.0 2.645 0.0 
3881.0 0.0 3.238 0.0 
3882.0 0.0 4.365 0.0 
3883.0 0.0 6.422 0.0 
3884.0 0.0 6.132 0.0 
3885.0 0.0 2.171 0.0 
3886.0 0.0 0.875 0.0 
3887.0 0.0 0.614 0.0 
3888.0 0.0 0.590 0.0 
3889.0 0.0 0.621 0.0 
3900.0 0.0 0.922 0.0 
3905.0 0.0 0.977 0.0 
3910.0 0.0 1.014 0.0 
3920.0 0.0 1.063 0.0 
3940.0 0.0 1.119 0.0 
3970.0 0.0 1.171 0.0 
4040.0 0.0 1.264 0.0 
4100.0 0.0 1.346 0.0 
4130.0 0.0 1.392 0.0 
4160.0 0.0 1.441 0.0 
4190.0 0.0 1.496 0.0 
4220.0 0.0 1.556 0.0 
4250.0 0.0 1.622 0.0 
4280.0 0.0 1.696 0.0 
4310.0 0.0 1.778 0.0 
4340.0 0.0 1.870 0.0 
4370.0 0.0 1.973 0.0 
4400.0 0.0 2.087 0.0 
4430.0 0.0 2.215 0.0 
4470.0 0.0 2.409 0.0 
4500.0 0.0 2.574 0.0 
4530.0 0.0 2.759 0.0 
4560.0 0.0 2.963 0.0 
4590.0 0.0 3.189 0.0 
4620.0 0.0 3.439 0.0 
4650.0 0.0 3.711 0.0 
4680.0 0.0 4.007 0.0 
4700.0 0.0 4.218 0.0 
4730.0 0.0 4.551 0.0 
4760.0 0.0 4.903 0.0 
4790.0 0.0 5.272 0.0 
4820.0 0.0 5.653 0.0 
4850.0 0.0 6.044 0.0 
4880.0 0.0 6.444 0.0 
4910.0 0.0 6.860 0.0 
4940.0 0.0 7.323 0.0 
4950.0 0.0 7.505 0.0 
4960.0 0.0 7.718 0.0 
4970.0 0.0 7.995 0.0 
4980.0 0.0 8.422 0.0 
4985.0 0.0 8.776 0.0 
4988.0 0.0 9.092 0.0 
4990.0 0.0 9.381 0.0 
4992.0 0.0 9.776 0.0 
4993.0 0.0 10.035 0.0 
4994.0 0.0 10.353 0.0 
4995.0 0.0 10.755 0.0 
4996.0 0.0 11.279 0.0 
4997.0 0.0 11.985 0.0 
4998.0 0.0 12.975 0.0 
4999.0 0.0 14.422 0.0 
5000.0 0.0 16.534 0.0 
5001.0 0.0 18.829 0.0 
5003.0 0.0 7.623 0.0 
5004.0 0.0 3.867 0.0 
5005.0 0.0 3.514 0.0 
5007.0 0.0 4.365 0.0 
5010.0 0.0 5.401 0.0 
5015.0 0.0 6.286 0.0 
5020.0 0.0 6.752 0.0 
5030.0 0.0 7.272 0.0 
5040.0 0.0 7.597 0.0 
5050.0 0.0 7.854 0.0 
5060.0 0.0 8.089 0.0 
5070.0 0.0 8.324 0.0 
5080.0 0.0 8.578 0.0 
5090.0 0.0 8.871 0.0 
5100.0 0.0 9.236 0.0 
5110.0 0.0 9.722 0.0 
5120.0 0.0 10.429 0.0 
5125.0 0.0 10.927 0.0 
5130.0 0.0 11.582 0.0 
5135.0 0.0 12.478 0.0 
5140.0 0.0 13.760 0.0 
5145.0 0.0 15.677 0.0 
5150.0 0.0 18.591 0.0 
5155.0 0.0 22.445 0.0 
5160.0 0.0 23.864 0.0 
5161.0 0.0 23.208 0.0 
5162.0 0.0 22.183 0.0 
5163.0 0.0 20.849 0.0 
5165.0 0.0 17.668 0.0 
5170.0 0.0 10.825 0.0 
5175.0 0.0 7.630 0.0 
5180.0 0.0 6.441 0.0 
5185.0 0.0 6.040 0.0 
5190.0 0.0 5.946 0.0 
5200.0 0.0 6.046 0.0 
5240.0 0.0 6.703 0.0 
5280.0 0.0 7.114 0.0 
5320.0 0.0 7.483 0.0 
5360.0 0.0 8.240 0.0 
5370.0 0.0 8.733 0.0 
5380.0 0.0 9.777 0.0 
5390.0 0.0 13.451 0.0 
5391.0 0.0 14.379 0.0 
5392.0 0.0 15.592 0.0 
5393.0 0.0 17.231 0.0 
5394.0 0.0 19.535 0.0 
5395.0 0.0 22.914 0.0 
5396.0 0.0 27.996 0.0 
5397.0 0.0 34.993 0.0 
5398.0 0.0 38.587 0.0 
5399.0 0.0 24.880 0.0 
5400.0 0.0 8.376 0.0 
5405.0 0.0 1.418 0.0 
5410.0 0.0 3.204 0.0 
5420.0 0.0 4.712 0.0 
5425.0 0.0 5.066 0.0 
5430.0 0.0 5.303 0.0 
5435.0 0.0 5.465 0.0 
5440.0 0.0 5.573 0.0 
5445.0 0.0 5.637 0.0 
5450.0 0.0 5.660 0.0 
5455.0 0.0 5.639 0.0 
5460.0 0.0 5.559 0.0 
5465.0 0.0 5.389 0.0 
5470.0 0.0 5.044 0.0 
5475.0 0.0 4.260 0.0 
5480.0 0.0 1.858 0.0 
5481.0 0.0 1.091 0.0 
5482.0 0.0 1.562 0.0 
5483.0 0.0 8.574 0.0 
5484.0 0.0 16.790 0.0 
5485.0 0.0 15.886 0.0 
5486.0 0.0 13.720 0.0 
5487.0 0.0 12.177 0.0 
5488.0 0.0 11.139 0.0 
5489.0 0.0 10.417 0.0 
5490.0 0.0 9.892 0.0 
5495.0 0.0 8.585 0.0 
5500.0 0.0 8.068 0.0 
5505.0 0.0 7.801 0.0 
5510.0 0.0 7.643 0.0 
5520.0 0.0 7.474 0.0 
5530.0 0.0 7.393 0.0 
5540.0 0.0 7.351 0.0 
5560.0 0.0 7.323 0.0 
5570.0 0.0 7.322 0.0 
5580.0 0.0 7.327 0.0 
5590.0 0.0 7.335 0.0 
5600.0 0.0 7.345 0.0 
5610.0 0.0 7.358 0.0 
5650.0 0.0 7.419 0.0 
5700.0 0.0 7.512 0.0 
5750.0 0.0 7.611 0.0 
5800.0 0.0 7.697 0.0 
5850.0 0.0 7.707 0.0 
5880.0 0.0 7.558 0.0 
5900.0 0.0 7.209 0.0 
5910.0 0.0 6.814 0.0 
5920.0 0.0 6.039 0.0 
5930.0 0.0 4.375 0.0 
5940.0 0.0 1.573 0.0 
5945.0 0.0 1.549 0.0 
5947.0 0.0 2.189 0.0 
5950.0 0.0 3.576 0.0 
5951.0 0.0 4.071 0.0 
5952.0 0.0 4.553 0.0 
5953.0 0.0 5.011 0.0 
5954.0 0.0 5.439 0.0 
5955.0 0.0 5.832 0.0 
5956.0 0.0 6.189 0.0 
5957.0 0.0 6.510 0.0 
5958.0 0.0 6.797 0.0 
5959.0 0.0 7.053 0.0 
5960.0 0.0 7.280 0.0 
5965.0 0.0 8.084 0.0 
5970.0 0.0 8.530 0.0 
5980.0 0.0 8.950 0.0 
5990.0 0.0 9.129 0.0 
6000.0 0.0 9.230 0.0 
6030.0 0.0 9.424 0.0 
6040.0 0.0 9.485 0.0 
6050.0 0.0 9.547 0.0 
6100.0 0.0 9.915 0.0 
6150.0 0.0 10.386 0.0 
6200.0 0.0 10.987 0.0 
6250.0 0.0 11.768 0.0 
6300.0 0.0 12.821 0.0 
6330.0 0.0 13.652 0.0 
6350.0 0.0 14.324 0.0 
6370.0 0.0 15.124 0.0 
6390.0 0.0 16.093 0.0 
6410.0 0.0 17.286 0.0 
6430.0 0.0 18.792 0.0 
6440.0 0.0 19.701 0.0 
6450.0 0.0 20.741 0.0 
6470.0 0.0 23.337 0.0 
6490.0 0.0 26.902 0.0 
6500.0 0.0 29.195 0.0 
6510.0 0.0 31.929 0.0 
6520.0 0.0 35.185 0.0 
6530.0 0.0 39.026 0.0 
6540.0 0.0 43.429 0.0 
6550.0 0.0 48.158 0.0 
6570.0 0.0 55.301 0.0 
6580.0 0.0 54.710 0.0 
6585.0 0.0 52.777 0.0 
6590.0 0.0 49.771 0.0 
6595.0 0.0 45.883 0.0 
6600.0 0.0 41.409 0.0 
6610.0 0.0 31.997 0.0 
6630.0 0.0 17.013 0.0 
6650.0 0.0 8.878 0.0 
6670.0 0.0 4.918 0.0 
6690.0 0.0 2.953 0.0 
6710.0 0.0 1.900 0.0 
6730.0 0.0 1.255 0.0 
6750.0 0.0 0.790 0.0 
6780.0 0.0 0.265 0.0 
6800.0 0.0 0.097 0.0 
6830.0 0.0 0.776 0.0 
6860.0 0.0 4.946 0.0 
6890.0 0.0 17.229 0.0 
EndData:
